Folder: Gitty

Note: sio-ico.txt
-----------------------------------------------
Infinite Cylinder Data File
Nmax: Auto-adjust
Mmax: 30

Domain data: Wavelength
(Min: 500,Max: 2000,Step: 5)
Incid. Angle: 0.5 * Pi
Fixed Diameter: 100

Cylinder Refractive index: Fixed value = 1.5
Medium Refractive index: Fixed value = 1
-----------------------------------------------

Data Format:
[Wavelength (nm)]   [QscatI]   [QextI]   [QscatII]  [QextII]
___________________________________________________
500    0.491724833260351    0.491724833260351    0.0840609188081449    0.0840609188081449
505    0.480858184741109    0.480858184741109    0.0818175569226642    0.0818175569226643
510    0.47019092437109    0.470190924371091    0.0796498000671548    0.0796498000671548
515    0.459725551618245    0.459725551618245    0.0775546163262856    0.0775546163262856
520    0.449463903020366    0.449463903020366    0.0755291162862312    0.0755291162862311
525    0.439407201584297    0.439407201584297    0.0735705448599348    0.0735705448599347
530    0.429556104942099    0.429556104942099    0.0716762737380074    0.0716762737380074
535    0.419910751964846    0.419910751964846    0.0698437943988698    0.0698437943988697
540    0.410470807602803    0.410470807602803    0.068070711620701    0.068070711620701
545    0.401235505779752    0.401235505779752    0.0663547374453517    0.0663547374453517
550    0.392203690219927    0.392203690219927    0.0646936855508213    0.0646936855508213
555    0.383373853129355    0.383373853129355    0.0630854659943793    0.0630854659943792
560    0.374744171689932    0.374744171689932    0.0615280802930791    0.0615280802930791
565    0.366312542355284    0.366312542355285    0.0600196168124067    0.0600196168124068
570    0.358076612962784    0.358076612962784    0.0585582464372176    0.0585582464372175
575    0.350033812696864    0.350033812696864    0.0571422185020516    0.0571422185020516
580    0.342181379955437    0.342181379955437    0.0557698569604421    0.0557698569604421
585    0.334516388184321    0.334516388184322    0.0544395567750094    0.0544395567750094
590    0.327035769754685    0.327035769754685    0.05314978051202    0.05314978051202
595    0.319736337965935    0.319736337965935    0.0518990551257317    0.0518990551257316
600    0.312614807261679    0.312614807261679    0.0506859689192679    0.0506859689192679
605    0.305667811749703    0.305667811749703    0.0495091686700176    0.0495091686700177
610    0.2988919221186    0.2988919221186    0.0483673569086453    0.0483673569086454
615    0.292283661044123    0.292283661044123    0.0472592893417648    0.0472592893417648
620    0.285839517177609    0.285839517177609    0.0461837724091745    0.0461837724091745
625    0.279555957807291    0.279555957807291    0.0451396609673106    0.0451396609673106
630    0.273429440281053    0.273429440281053    0.0441258560912384    0.0441258560912384
635    0.267456422276377    0.267456422276377    0.0431413029881078    0.0431413029881078
640    0.261633371000052    0

File: sinw.txt
-----------------------------------------------
Infinite Cylinder Data File
Nmax: Auto-adjust
Mmax: 30

Domain data: Wavelength
(Min: 300,Max: 500,Step: 2)
Incid. Angle: 0.5 * Pi
Fixed Diameter: 100

Cylinder Refractive index: Fftgtgrom file C:\Users\Catee\Desktop\CRYSTALS_Si_sopra110.txt
Medium Refractive index: Fixed value = 1
-----------------------------------------------

Data Format:
[Wavelength (nm)]   [QscatI]   [QextI]   [QscatII]  [QextII]
___________________________________________________
300    2.19136    2.77564    0.96252    1.47051
302    2.18311    2.78322    0.956158    1.47528
304    2.17534    2.79005    0.950355    1.47961
306    2.16877    2.79603    0.945243    1.48292
308    2.16331    2.80204    0.940311    1.48541
310    2.15882    2.80789    0.935622    1.48714
312    2.15515    2.81321    0.931327    1.48815
314    2.15259    2.81896    0.926973    1.4884
316    2.15039    2.82464    0.922694    1.48834
318    2.14887    2.82996    0.918668    1.48768
320    2.1481    2.83559    0.91458    1.48651
322    2.14722    2.84068    0.9107    1.48526
324    2.14712    2.8466    0.906511    1.48356
326    2.1477    2.85211    0.902588    1.48127
328    2.14853    2.85804    0.898471    1.47883
330    2.14962    2.8641    0.894287    1.47618
332    2.15014    2.86947    0.89029    1.47373
334    2.15186    2.87516    0.886304    1.47048
336    2.15367    2.88048    0.882459    1.46707
338    2.15602    2.88597    0.878591    1.46327
340    2.15851    2.89143    0.874717    1.45932
342    2.16184    2.8975    0.870658    1.45487
344    2.16564    2.90311    0.866867    1.45001
346    2.1703    2.90886    0.863134    1.4446
348    2.17561    2.9148    0.859407    1.43877
350    2.18224    2.92109    0.855742    1.43217
352    2.19059    2.92775    0.852227    1.42457
354    2.20094    2.93501    0.84884    1.4159
356    2.21433    2.94413    0.845294    1.40586
358    2.23004    2.95503    0.841606    1.39504
360    2.24835    2.96937    0.837428    1.384
362    2.26775    2.98709    0.832915    1.37409
364    2.28776    3.00867    0.828441    1.36644
366    2.30724    3.03437    0.824581    1.36264
368    2.32707    3.06471    0.822319    1.36317
370    2.34961    3.10171    0.822327    1.36774
372    2.37867    3.14956    0.824268    1.3748
374    2.41409    3.20937    0.824549    1.38007
376    2.4483    3.27696    0.816005    1.37823
378    2.46359    3.33362    0.789863    1.36254
380    2.44558    3.34916    0.742557    1.32452
382    2.39404    3.29388    0.677387    1.25441
384    2.34005    3.18828    0.616575    1.16766
386    2.30322    3.07535    0.569586    1.08053
388    2.2834    2.97661    0.534573    0.997613
390    2.27269    2.90275    0.508584    0.926301
392    2.2607    2.84853    0.487051    0.869347
394    2.23987    2.80597    0.467515    0.827102
396    2.20295    2.76437    0.447655    0.795369
398    2.14384    2.71801    0.427513    0.774522
400    2.0625    2.66319    0.407571    0.762736
402    1.94153    2.58564    0.385738    0.759288
404    1.79351    2.49179    0.365342    0.765625
406    1.61858    2.38119    0.347425    0.78467
408    1.42601    2.25942    0.333972    0.819712
410    1.23555    2.14325    0.329254    0.878966
412    1.07762    2.05753    0.339413    0.97034
414    0.98972    2.04376    0.376933    1.11422
416    0.995955    2.13443    0.461139    1.33505
418    1.09276    2.32711    0.607138    1.63511
420    1.2501    2.57321    0.834378    2.02045
422    1.42252    2.75886    1.13749    2.45632
424    1.58862    2.79815    1.51338    2.90506
426    1.73274    2.72768    1.86932    3.23139
428    1.86551    2.65664    2.11773    3.35658
430    1.99344    2.62665    2.24    3.30452
432    2.11774    2.63442    2.25545    3.13563
434    2.23522    2.66774    2.2015    2.91705
436    2.34154    2.71328    2.11917    2.70263
438    2.42821    2.75734    2.03955    2.52787
440    2.52022    2.81183    1.95094    2.35419
442    2.60747    2.87175    1.86156    2.19987
444    2.68725    2.92873    1.78623    2.07358
446    2.76063    2.98484    1.71952    1.96821
448    2.83259    3.04208    1.66025    1.87713
450    2.899    3.09909    1.60764    1.80168
452    2.96252    3.15175    1.56542    1.73852
454    3.02433    3.20589    1.52752    1.68455
456    3.08484    3.26052    1.4946    1.63874
458    3.14424    3.31541    1.46639    1.60013
460    3.20261    3.37017    1.44261    1.56777
462    3.25994    3.42427    1.42293    1.54075
464    3.31695    3.47874    1.40666    1.5184
466    3.3743    3.53446    1.39343    1.50031
468    3.43208    3.59145    1.38309    1.48614
470    3.49014    3.64947    1.37545    1.47555
472    3.54833    3.70832    1.37028    1.46823
474    3.60768    3.76883    1.36756    1.46394
476    3.66943    3.83193    1.36746    1.46259
478    3.73358    3.89768    1.36994    1.46414
480    3.79977    3.96585    1.37484    1.46852
482    3.86773    4.03621    1.38202    1.47558
484    3.93839    4.10986    1.39166    1.48554
486    4.01304    4.18859    1.40411    1.49901
488    4.09137    4.27183    1.41933    1.51576
490    4.17238    4.35798    1.43694    1.53513
492    4.25487    4.44519    1.45647    1.55627
494    4.34062    4.5359    1.47844    1.58006
496    4.43066    4.63148    1.50322    1.60701
498    4.52602    4.73315    1.5312    1.63761
500    4.62823    4.84282    1.56303    1.67266